File: scripts/testing/Laborzelle/Au_Ref/20241029_Long_OCV_A3_03_OCV_C03.mpt
EC-Lab ASCII FILE
Nb header lines : 48

Open Circuit Voltage

Run on channel : 3 (SN 18804)
User :
Electrode connection : standard
Potential control : Ewe-Ece
Ewe ctrl range : min = -5,00 V, max = 5,00 V
Ewe,I filtering : <None>
Safety Limits :
	Do not start on E overload
Channel : Floating
Acquisition started on : 10/29/2024 09:04:26.660
Loaded Setting File :  NONE
Saved on :
	File : 20241029_Long_OCV_A3_03_OCV_C03.mpr
	Directory : C:\Users\admin\Desktop\Andre\CircularLIB_iFBGA8_Test\A3_iFBG_Gold\Long_OCV\
	Host : 192.168.10.210
Device : VSP-300 (SN 1300)
Address : 192.168.10.241
EC-LAB for windows v11.61 (software)
Internet server v11.61 (firmware)
Command interpretor v11.61 (firmware)
Electrode material :
Initial state :
Electrolyte :
Comments :
Current amplifier : B-2A30V
Cable : standard
Electrode surface area : 0,001 cm²
Characteristic mass : 0,001 g
Equivalent Weight : 0,000 g/eq.
Density : 0,000 g/cm3
Volume (V) : 0,001 cm³
Record Ece
Record EIS quality indicators
Cycle Definition : Charge/Discharge alternance
tR (h:m:s)          5:00:0,0000
dER/dt (mV/h)       1,0
record              <Ewe>
dER (mV)            0,00
dtR (s)             1,0000
E range min (V)     -5,000
E range max (V)     5,000

mode	error	time/s	<Ewe/V>	<Ece>/V	Ewe-Ece/V
3	0	9,282874630481121E+003	3,8403080E+000	-2,7450910E-001	4,1148171E+000
3	0	9,284874630456907E+003	3,8385446E+000	-2,7573594E-001	4,1142807E+000
3	0	9,286874630432692E+003	3,8381217E+000	-2,7588999E-001	4,1140118E+000
3	0	9,288874630408478E+003	3,8378541E+000	-2,7592066E-001	4,1137748E+000
3	0	9,290874630384264E+003	3,8376482E+000	-2,7594289E-001	4,1135912E+000
3	0	9,292874630360049E+003	3,8374729E+000	-2,7595857E-001	4,1134315E+000
3	0	9,294874630335835E+003	3,8373334E+000	-2,7595031E-001	4,1132836E+000
3	0	9,296874630311620E+003	3,8372052E+000	-2,7594692E-001	4,1131520E+000
3	0	9,298874630287406E+003	3,8370950E+000	-2,7593610E-001	4,1130309E+000
3	0	9,300874630263192E+003	3,8370051E+000	-2,7594125E-001	4,1129465E+000
3	0	9,302874630238977E+003	3,8369248E+000	-2,7593017E-001	4,1128550E+000
3	0	9,304874630214763E+003	3,8368518E+000	-2,7592134E-001	4,1127729E+000
3	0	9,306874630190548E+003	3,8367698E+000	-2,7590927E-001	4,1126790E+000
3	0	9,308874630166334E+003	3,8367002E+000	-2,7589941E-001	4,1125994E+000
3	0	9,310874630142120E+003	3,8366396E+000	-2,7588755E-001	4,1125274E+000
3	0	9,312874630117905E+003	3,8365765E+000	-2,7587575E-001	4,1124520E+000
3	0	9,314874630093691E+003	3,8365278E+000	-2,7585834E-001	4,1123862E+000
3	0	9,316874630069477E+003	3,8364835E+000	-2,7585617E-001	4,1123395E+000
3	0	9,318874630045262E+003	3,8364346E+000	-2,7584556E-001	4,1122804E+000
3	0	9,320874630021048E+003	3,8363888E+000	-2,7583665E-001	4,1122255E+000
3	0	9,322874629996833E+003	3,8363593E+000	-2,7583903E-001	4,1121984E+000
3	0	9,324874629972619E+003	3,8363178E+000	-2,7583104E-001	4,1121488E+000
3	0	9,326874629948405E+003	3,8362772E+000	-2,7581826E-001	4,1120954E+000
3	0	9,328874629924190E+003	3,8362474E+000	-2,7579787E-001	4,1120453E+000
3	0	9,330874629899976E+003	3,8362350E+000	-2,7578539E-001	4,1120205E+000
3	0	9,332874629875761E+003	3,8362052E+000	-2,7577883E-001	4,1119843E+000
3	0	9,334874629851547E+003	3,8361807E+000	-2,7578327E-001	4,1119637E+000
3	0	9,336874629827333E+003	3,8361483E+000	-2,7577212E-001	4,1119204E+000
3	0	9,338874629803118E+003	3,8361239E+000	-2,7577028E-001	4,1118941E+000
3	0	9,340874629778904E+003	3,8361073E+000	-2,7577552E-001	4,1118827E+000
3	0	9,342874629754690E+003	3,8360968E+000	-2,7576831E-001	4,1118650E+000
3	0	9,344874629730475E+003	3,8360720E+000	-2,7576047E-001	4,1118326E+000
3	0	9,346874629706261E+003	3,8360505E+000	-2,7575707E-001	4,1118078E+000
3	0	9,348874629682046E+003	3,8360400E+000	-2,7575696E-001	4,1117969E+000
3	0	9,350874629657832E+003	3,8360395E+000	-2,7576625E-001	4,1118059E+000
3	0	9,352874629633618E+003	3,8360167E+000	-2,7575886E-001	4,1117754E+000
3	0	9,354874629609403E+003	3,8359954E+000	-2,7575788E-001	4,1117535E+000
3	0	9,356874629585189E+003	3,8359919E+000	-2,7575871E-001	4,1117506E+000
3	0	9,358874629560974E+003	3,8359811E+000	-2,7575108E-001	4,1117320E+000
3	0	9,360874629536760E+003	3,8359611E+000	-2,7574453E-001	4,1117058E+000
3	0	9,362874629512546E+003	3,8359478E+000	-2,7573723E-001	4,1116848E+000
3	0	9,364874629488331E+003	3,8359337E+000	-2,7573007E-001	4,1116638E+000
3	0	9,366874629464117E+003	3,8359299E+000	-2,7572373E-001	4,1116538E+000
3	0	9,368874629439902E+003	3,8359139E+000	-2,7571994E-001	4,1116338E+000
3	0	9,370874629415688E+003	3,8358986E+000	-2,7570927E-001	4,1116080E+000
3	0	9,372874629391474E+003	3,8358889E+000	-2,7569634E-001	4,1115851E+000
3	0	9,374874629367259E+003	3,8358889E+000	-2,7569336E-001	4,1115823E+000
3	0	9,376874629343045E+003	3,8358810E+000	-2,7569926E-001	4,1115804E+000
3	0	9,378874629318831E+003	3,8358688E+000	-2,7569503E-001	4,1115637E+000
3	0	9,380874629294616E+003	3,8358655E+000	-2,7569285E-001	4,1115584E+000
3	0	9,382874629270402E+003	3,8358557E+000	-2,7568057E-001	4,1115365E+000
3	0	9,384874629246187E+003	3,8358536E+000	-2,7566746E-001	4,1115212E+000
3	0	9,386874629221973E+003	3,8358419E+000	-2,7566096E-001	4,1115026E+000
3	0	9,388874629197759E+003	3,8358450E+000	-2,7567407E-001	4,1115189E+000
3	0	9,390874629173544E+003	3,8358278E+000	-2,7566740E-001	4,1114950E+000
3	0	9,392874629149330E+003	3,8358126E+000	-2,7566370E-001	4,1114764E+000
3	0	9,394874629125115E+003	3,8358185E+000	-2,7565432E-001	4,1114731E+000
3	0	9,396874629100901E+003	3,8358073E+000	-2,7566257E-001	4,1114697E+000
3	0	9,398874629076687E+003	3,8358068E+000	-2,7566883E-001	4,1114755E+000
3	0	9,400874629052472E+003	3,8357890E+000	-2,7567038E-001	4,1114593E+000
3	0	9,402874629028258E+003	3,8357849E+000	-2,7566597E-001	4,1114507E+000
3	0	9,404874629004044E+003	3,8357849E+000	-2,7566829E-001	4,1114531E+000
3	0	9,406874628979829E+003	3,8357844E+000	-2,7566445E-001	4,1114488E+000
3	0	9,408874628955615E+003	3,8357854E+000	-2,7566665E-001	4,1114521E+000
3	0	9,410874628931400E+003	3,8357744E+000	-2,7566200E-001	4,1114364E+000
3	0	9,412874628907186E+003	3,8357849E+000	-2,7565780E-001	4,1114426E+000
3	0	9,414874628882972E+003	3,8357806E+000	-2,7566510E-001	4,1114459E+000
3	0	9,416874628858757E+003	3,8357670E+000	-2,7565780E-001	4,1114249E+000
3	0	9,418874628834543E+003	3,8357697E+000	-2,7566797E-001	4,1114378E+000
3	0	9,420874628810328E+003	3,8357661E+000	-2,7566493E-001	4,1114311E+000
3	0	9,422874628786114E+003	3,8357553E+000	-2,7566198E-001	4,1114173E+000
3	0	9,424874628761900E+003	3,8357451E+000	-2,7565944E-001	4,1114044E+000
3	0	9,426874628737685E+003	3,8357439E+000	-2,7566749E-001	4,1114116E+000
3	0	9,428874628713471E+003	3,8357499E+000	-2,7565810E-001	4,1114078E+000
3	0	9,430874628689257E+003	3,8357396E+000	-2,7564919E-001	4,1113887E+000
3	0	9,432874628665042E+003	3,8357372E+000	-2,7564895E-001	4,1113863E+000
3	0	9,434874628640828E+003	3,8357322E+000	-2,7563801E-001	4,1113701E+000
3	0	9,436874628616613E+003	3,8357284E+000	-2,7562758E-001	4,1113558E+000
3	0	9,438874628592399E+003	3,8357177E+000	-2,7562028E-001	4,1113381E+000
3	0	9,440874628568185E+003	3,8357213E+000	-2,7562675E-001	4,1113482E+000
3	0	9,442874628543970E+003	3,8357084E+000	-2,7564067E-001	4,1113491E+000
3	0	9,444874628519756E+003	3,8357003E+000	-2,7562502E-001	4,1113253E+000
3	0	9,446874628495541E+003	3,8356919E+000	-2,7562413E-001	4,1113162E+000
3	0	9,448874628471327E+003	3,8356993E+000	-2,7561718E-001	4,1113167E+000
3	0	9,450874628447113E+003	3,8356967E+000	-2,7562314E-001	4,1113200E+000
3	0	9,452874628422898E+003	3,8356931E+000	-2,7562314E-001	4,1113162E+000
3	0	9,454874628398684E+003	3,8356926E+000	-2,7562466E-001	4,1113172E+000
3	0	9,456874628374469E+003	3,8356905E+000	-2,7562138E-001	4,1113119E+000
3	0	9,458874628350255E+003	3,8356969E+000	-2,7563024E-001	4,1113272E+000
3	0	9,460874628326041E+003	3,8356893E+000	-2,7561000E-001	4,1112995E+000
3	0	9,462874628301826E+003	3,8356900E+000	-2,7560377E-001	4,1112938E+000
3	0	9,464874628277612E+003	3,8356833E+000	-2,7559954E-001	4,1112828E+000
3	0	9,466874628253398E+003	3,8356779E+000	-2,7560163E-001	4,1112795E+000
3	0	9,468874628229183E+003	3,8356776E+000	-2,7560341E-001	4,1112809E+000
3	0	9,470874628204969E+003	3,8356686E+000	-2,7560845E-001	4,1112771E+000
3	0	9,472874628180754E+003	3,8356678E+000	-2,7560490E-001	4,1112728E+000
3	0	9,474874628156540E+003	3,8356690E+000	-2,7560878E-001	4,1112776E+000
3	0	9,476874628132326E+003	3,8356767E+000	-2,7561161E-001	4,1112881E+000
3	0	9,478874628108111E+003	3,8356674E+000	-2,7560824E-001	4,1112757E+000
3	0	9,480874628083897E+003	3,8356593E+000	-2,7560323E-001	4,1112623E+000
3	0	9,482874628059682E+003	3,8356743E+000	-2,7560291E-001	4,1112771E+000
3	0	9,484874628035468E+003	3,8356657E+000	-2,7559498E-001	4,1112609E+000
3	0	9,486874628011254E+003	3,8356650E+000	-2,7560401E-001	4,1112690E+000
3	0	9,488874627987039E+003	3,8356600E+000	-2,7559972E-001	4,1112595E+000
3	0	9,490874627962825E+003	3,8356545E+000	-2,7559927E-001	4,1112537E+000
3	0	9,492874627938611E+003	3,8356416E+000	-2,7559596E-001	4,1112375E+000
3	0	9,494874627914396E+003	3,8356435E+000	-2,7559096E-001	4,1112347E+000
3	0	9,496874627890182E+003	3,8356466E+000	-2,7559301E-001	4,1112394E+000
3	0	9,498874627865967E+003	3,8356473E+000	-2,7560139E-001	4,1112490E+000
3	0	9,500874627841753E+003	3,8356366E+000	-2,7559072E-001	4,1112275E+000
3	0	9,502874627817539E+003	3,8356354E+000	-2,7559480E-001	4,1112304E+000
3	0	9,504874627793324E+003	3,8356314E+000	-2,7559009E-001	4,1112213E+000
3	0	9,506874627769110E+003	3,8356318E+000	-2,7559701E-001	4,1112289E+000
3	0	9,508874627744895E+003	3,8356380E+000	-2,7559352E-001	4,1112318E+000
3	0	9,510874627720681E+003	3,8356435E+000	-2,7560422E-001	4,1112475E+000
3	0	9,512874627696467E+003	3,8356376E+000	-2,7559122E-001	4,1112289E+000
3	0	9,514874627672252E+003	3,8356357E+000	-2,7559546E-001	4,1112313E+000
3	0	9,516874627648038E+003	3,8356397E+000	-2,7559131E-001	4,1112309E+000
3	0	9,518874627623823E+003	3,8356264E+000	-2,7559468E-001	4,1112208E+000
3	0	9,520874627599609E+003	3,8356283E+000	-2,7560201E-001	4,1112304E+000
3	0	9,522874627575395E+003	3,8356245E+000	-2,7559382E-001	4,1112185E+000
3	0	9,524874627551180E+003	3,8356278E+000	-2,7557856E-001	4,1112065E+000
3	0	9,526874627526966E+003	3,8356278E+000	-2,7558753E-001	4,1112151E+000
3	0	9,528874627502752E+003	3,8356183E+000	-2,7557528E-001	4,1111937E+000
3	0	9,530874627478537E+003	3,8356147E+000	-2,7558652E-001	4,1112013E+000
3	0	9,532874627454323E+003	3,8356161E+000	-2,7558675E-001	4,1112027E+000
3	0	9,534874627430108E+003	3,8356116E+000	-2,7557886E-001	4,1111903E+000
3	0	9,536874627405894E+003	3,8356044E+000	-2,7558121E-001	4,1111856E+000
3	0	9,538874627381680E+003	3,8355970E+000	-2,7558860E-001	4,1111856E+000
3	0	9,540874627357465E+003	3,8356013E+000	-2,7559054E-001	4,1111917E+000
3	0	9,542874627333251E+003	3,8355901E+000	-2,7559203E-001	4,1111822E+000
3	0	9,544874627309036E+003	3,8355966E+000	-2,7561143E-001	4,1112080E+000
3	0	9,546874627284822E+003	3,8355978E+000	-2,7561450E-001	4,1112123E+000
3	0	9,548874627260608E+003	3,8355885E+000	-2,7561665E-001	4,1112051E+000
3	0	9,550874627236393E+003	3,8355868E+000	-2,7561355E-001	4,1112003E+000
3	0	9,552874627212179E+003	3,8355947E+000	-2,7560833E-001	4,1112032E+000
3	0	9,554874627187965E+003	3,8355944E+000	-2,7560577E-001	4,1112003E+000
3	0	9,556874627163750E+003	3,8355963E+000	-2,7560070E-001	4,1111970E+000
3	0	9,558874627139536E+003	3,8355966E+000	-2,7560571E-001	4,1112022E+000
3	0	9,560874627115321E+003	3,8355923E+000	-2,7561450E-001	4,1112070E+000
3	0	9,562874627091107E+003	3,8355947E+000	-2,7560976E-001	4,1112046E+000
3	0	9,564874627066893E+003	3,8355947E+000	-2,7561751E-001	4,1112123E+000
3	0	9,566874627042678E+003	3,8355987E+000	-2,7560988E-001	4,1112084E+000
3	0	9,568874627018464E+003	3,8355806E+000	-2,7561018E-001	4,1111908E+000
3	0	9,570874626994249E+003	3,8355842E+000	-2,7561471E-001	4,1111989E+000
3	0	9,572874626970035E+003	3,8355792E+000	-2,7560759E-001	4,1111870E+000
3	0	9,574874626945821E+003	3,8355861E+000	-2,7560523E-001	4,1111913E+000
3	0	9,576874626921606E+003	3,8355854E+000	-2,7560288E-001	4,1111884E+000
3	0	9,578874626897392E+003	3,8355842E+000	-2,7559835E-001	4,1111827E+000
3	0	9,580874626873177E+003	3,8355896E+000	-2,7559441E-001	4,1111841E+000
3	0	9,582874626848963E+003	3,8355854E+000	-2,7560055E-001	4,1111860E+000
3	0	9,584874626824749E+003	3,8355823E+000	-2,7560693E-001	4,1111894E+000
3	0	9,586874626800534E+003	3,8355806E+000	-2,7559951E-001	4,1111803E+000
3	0	9,588874626776320E+003	3,8355947E+000	-2,7560490E-001	4,1111994E+000
3	0	9,590874626752106E+003	3,8355927E+000	-2,7559876E-001	4,1111917E+000
3	0	9,592874626727891E+003	3,8355927E+000	-2,7559879E-001	4,1111917E+000
3	0	9,594874626703677E+003	3,8355911E+000	-2,7559406E-001	4,1111851E+000
3	0	9,596874626679462E+003	3,8355904E+000	-2,7558249E-001	4,1111727E+000
3	0	9,598874626655248E+003	3,8355966E+000	-2,7559194E-001	4,1111884E+000
3	0	9,600874626631034E+003	3,8355849E+000	-2,7558631E-001	4,1111712E+000
3	0	9,602874626606819E+003	3,8355811E+000	-2,7559206E-001	4,1111732E+000
3	0	9,604874626582605E+003	3,8355787E+000	-2,7558973E-001	4,1111684E+000
3	0	9,606874626558390E+003	3,8355892E+000	-2,7559456E-001	4,1111836E+000
3	0	9,608874626534176E+003	3,8355794E+000	-2,7560404E-001	4,1111836E+000
3	0	9,610874626509962E+003	3,8355763E+000	-2,7560943E-001	4,1111856E+000
3	0	9,612874626485747E+003	3,8355725E+000	-2,7559900E-001	4,1111717E+000
3	0	9,614874626461533E+003	3,8355646E+000	-2,7559581E-001	4,1111603E+000
3	0	9,616874626437319E+003	3,8355665E+000	-2,7559686E-001	4,1111631E+000
3	0	9,618874626413104E+003	3,8355670E+000	-2,7558470E-001	4,1111517E+000
3	0	9,620874626388890E+003	3,8355610E+000	-2,7558559E-001	4,1111465E+000
3	0	9,622874626364675E+003	3,8355577E+000	-2,7558085E-001	4,1111383E+000
3	0	9,624874626340461E+003	3,8355572E+000	-2,7558401E-001	4,1111412E+000
3	0	9,626874626316247E+003	3,8355517E+000	-2,7559310E-001	4,1111450E+000
3	0	9,628874626292032E+003	3,8355622E+000	-2,7557680E-001	4,1111388E+000
3	0	9,630874626267818E+003	3,8355639E+000	-2,7558950E-001	4,1111536E+000
3	0	9,632874626243603E+003	3,8355632E+000	-2,7558696E-001	4,1111503E+000
3	0	9,634874626219389E+003	3,8355548E+000	-2,7558559E-001	4,1111403E+000
3	0	9,636874626195175E+003	3,8355498E+000	-2,7557531E-001	4,1111250E+000
3	0	9,638874626170960E+003	3,8355458E+000	-2,7558625E-001	4,1111321E+000
3	0	9,640874626146746E+003	3,8355548E+000	-2,7559793E-001	4,1111526E+000
3	0	9,642874626122531E+003	3,8355536E+000	-2,7560622E-001	4,1111598E+000
3	0	9,644874626098317E+003	3,8355579E+000	-2,7559647E-001	4,1111546E+000
3	0	9,646874626074103E+003	3,8355596E+000	-2,7559912E-001	4,1111588E+000
3	0	9,648874626049888E+003	3,8355663E+000	-2,7560180E-001	4,1111679E+000
3	0	9,650874626025674E+003	3,8355663E+000	-2,7561361E-001	4,1111798E+000
3	0	9,652874626001460E+003	3,8355641E+000	-2,7560693E-001	4,1111712E+000
3	0	9,654874625977245E+003	3,8355608E+000	-2,7560818E-001	4,1111689E+000
3	0	9,656874625953031E+003	3,8355598E+000	-2,7560532E-001	4,1111650E+000
3	0	9,658874625928816E+003	3,8355541E+000	-2,7561426E-001	4,1111684E+000
3	0	9,660874625904602E+003	3,8355486E+000	-2,7560273E-001	4,1111512E+000
3	0	9,662874625880388E+003	3,8355584E+000	-2,7560654E-001	4,1111650E+000
3	0	9,664874625856173E+003	3,8355541E+000	-2,7561924E-001	4,1111732E+000
3	0	9,666874625831959E+003	3,8355536E+000	-2,7561247E-001	4,1111660E+000
3	0	9,668874625807744E+003	3,8355529E+000	-2,7562496E-001	4,1111779E+000
3	0	9,670874625783530E+003	3,8355534E+000	-2,7562261E-001	4,1111760E+000
3	0	9,672874625759316E+003	3,8355455E+000	-2,7562886E-001	4,1111746E+000
3	0	9,674874625735101E+003	3,8355427E+000	-2,7562246E-001	4,1111650E+000
3	0	9,676874625710887E+003	3,8355510E+000	-2,7562192E-001	4,1111732E+000
3	0	9,678874625686673E+003	3,8355470E+000	-2,7561629E-001	4,1111631E+000
3	0	9,680874625662458E+003	3,8355455E+000	-2,7560127E-001	4,1111469E+000
3	0	9,682874625638244E+003	3,8355572E+000	-2,7560952E-001	4,1111670E+000
3	0	9,684874625614029E+003	3,8355427E+000	-2,7561152E-001	4,1111541E+000
3	0	9,686874625589815E+003	3,8355486E+000	-2,7560535E-001	4,1111541E+000
3	0	9,688874625565601E+003	3,8355448E+000	-2,7560356E-001	4,1111484E+000
3	0	9,690874625541386E+003	3,8355494E+000	-2,7560052E-001	4,1111498E+000
3	0	9,692874625517172E+003	3,8355498E+000	-2,7559248E-001	4,1111422E+000
3	0	9,694874625492957E+003	3,8355455E+000	-2,7559316E-001	4,1111388E+000
3	0	9,696874625468743E+003	3,8355491E+000	-2,7559760E-001	4,1111469E+000
3	0	9,698874625444529E+003	3,8355415E+000	-2,7559415E-001	4,1111355E+000
3	0	9,700874625420314E+003	3,8355567E+000	-2,7559578E-001	4,1111526E+000
3	0	9,702874625396100E+003	3,8355572E+000	-2,7560329E-001	4,1111603E+000
3	0	9,704874625371885E+003	3,8355517E+000	-2,7558520E-001	4,1111369E+000
3	0	9,706874625347671E+003	3,8355463E+000	-2,7559248E-001	4,1111388E+000
3	0	9,708874625323457E+003	3,8355443E+000	-2,7559364E-001	4,1111379E+000
3	0	9,710874625299242E+003	3,8355339E+000	-2,7559271E-001	4,1111264E+000
3	0	9,712874625275028E+003	3,8355310E+000	-2,7558884E-001	4,1111197E+000
3	0	9,714874625250814E+003	3,8355303E+000	-2,7560872E-001	4,1111388E+000
3	0	9,716874625226599E+003	3,8355308E+000	-2,7561173E-001	4,1111426E+000
3	0	9,718874625202385E+003	3,8355389E+000	-2,7561516E-001	4,1111541E+000
3	0	9,720874625178170E+003	3,8355360E+000	-2,7561578E-001	4,1111517E+000
3	0	9,722874625153956E+003	3,8355389E+000	-2,7561814E-001	4,1111569E+000
3	0	9,724874625129742E+003	3,8355381E+000	-2,7562842E-001	4,1111665E+000
3	0	9,726874625105527E+003	3,8355479E+000	-2,7563241E-001	4,1111803E+000
3	0	9,728874625081313E+003	3,8355501E+000	-2,7563146E-001	4,1111817E+000
3	0	9,730874625057098E+003	3,8355556E+000	-2,7563643E-001	4,1111917E+000
3	0	9,732874625032884E+003	3,8355572E+000	-2,7564177E-001	4,1111989E+000
3	0	9,734874625008670E+003	3,8355513E+000	-2,7564189E-001	4,1111932E+000
3	0	9,736874624984455E+003	3,8355389E+000	-2,7563497E-001	4,1111736E+000
3	0	9,738874624960241E+003	3,8355517E+000	-2,7564234E-001	4,1111941E+000
3	0	9,740874624936027E+003	3,8355432E+000	-2,7564418E-001	4,1111875E+000
3	0	9,742874624911812E+003	3,8355403E+000	-2,7563408E-001	4,1111746E+000
3	0	9,744874624887598E+003	3,8355286E+000	-2,7564216E-001	4,1111708E+000
3	0	9,746874624863383E+003	3,8355327E+000	-2,7563778E-001	4,1111703E+000
3	0	9,748874624839169E+003	3,8355365E+000	-2,7563894E-001	4,1111755E+000
3	0	9,750874624814955E+003	3,8355353E+000	-2,7563637E-001	4,1111717E+000
3	0	9,752874624790740E+003	3,8355389E+000	-2,7563921E-001	4,1111779E+000
3	0	9,754874624766526E+003	3,8355384E+000	-2,7564481E-001	4,1111832E+000
3	0	9,756874624742311E+003	3,8355403E+000	-2,7563494E-001	4,1111751E+000
3	0	9,758874624718097E+003	3,8355339E+000	-2,7563754E-001	4,1111712E+000
3	0	9,760874624693883E+003	3,8355365E+000	-2,7564427E-001	4,1111808E+000
3	0	9,762874624669668E+003	3,8355463E+000	-2,7564278E-001	4,1111889E+000
3	0	9,764874624645454E+003	3,8355360E+000	-2,7562866E-001	4,1111646E+000
3	0	9,766874624621239E+003	3,8355329E+000	-2,7564043E-001	4,1111732E+000
3	0	9,768874624597025E+003	3,8355327E+000	-2,7564541E-001	4,1111779E+000
3	0	9,770874624572811E+003	3,8355286E+000	-2,7564076E-001	4,1111693E+000
3	0	9,772874624548596E+003	3,8355274E+000	-2,7562690E-001	4,1111546E+000
3	0	9,774874624524382E+003	3,8355350E+000	-2,7562934E-001	4,1111646E+000
3	0	9,776874624500168E+003	3,8355370E+000	-2,7563402E-001	4,1111708E+000
3	0	9,778874624475953E+003	3,8355322E+000	-2,7563313E-001	4,1111655E+000
3	0	9,780874624451739E+003	3,8355384E+000	-2,7561745E-001	4,1111560E+000
3	0	9,782874624427524E+003	3,8355412E+000	-2,7562487E-001	4,1111660E+000
3	0	9,784874624403310E+003	3,8355427E+000	-2,7561742E-001	4,1111603E+000
3	0	9,786874624379096E+003	3,8355334E+000	-2,7561992E-001	4,1111531E+000
3	0	9,788874624354881E+003	3,8355327E+000	-2,7562341E-001	4,1111560E+000
3	0	9,790874624330667E+003	3,8355327E+000	-2,7561808E-001	4,1111507E+000
3	0	9,792874624306452E+003	3,8355248E+000	-2,7560633E-001	4,1111312E+000
3	0	9,794874624282238E+003	3,8355334E+000	-2,7560455E-001	4,1111379E+000
3	0	9,796874624258024E+003	3,8355353E+000	-2,7560097E-001	4,1111364E+000
3	0	9,798874624233809E+003	3,8355284E+000	-2,7560738E-001	4,1111360E+000
3	0	9,800874624209595E+003	3,8355212E+000	-2,7559477E-001	4,1111159E+000
3	0	9,802874624185381E+003	3,8355260E+000	-2,7559587E-001	4,1111217E+000
3	0	9,804874624161166E+003	3,8355279E+000	-2,7558336E-001	4,1111112E+000
3	0	9,806874624136952E+003	3,8355298E+000	-2,7558261E-001	4,1111126E+000
3	0	9,808874624112737E+003	3,8355298E+000	-2,7559590E-001	4,1111259E+000
3	0	9,810874624088523E+003	3,8355243E+000	-2,7560335E-001	4,1111279E+000
3	0	9,812874624064309E+003	3,8355205E+000	-2,7559337E-001	4,1111140E+000
3	0	9,814874624040094E+003	3,8355224E+000	-2,7559409E-001	4,1111164E+000
3	0	9,816874624015880E+003	3,8355212E+000	-2,7559623E-001	4,1111174E+000
3	0	9,818874623991665E+003	3,8355291E+000	-2,7560091E-001	4,1111298E+000
3	0	9,820874623967451E+003	3,8355157E+000	-2,7559325E-001	4,1111088E+000
3	0	9,822874623943237E+003	3,8355143E+000	-2,7559695E-001	4,1111112E+000
3	0	9,824874623919022E+003	3,8354993E+000	-2,7559766E-001	4,1110969E+000
3	0	9,826874623894808E+003	3,8354895E+000	-2,7558997E-001	4,1110797E+000
3	0	9,828874623870594E+003	3,8355010E+000	-2,7560070E-001	4,1111016E+000
3	0	9,830874623846379E+003	3,8355029E+000	-2,7559546E-001	4,1110983E+000
3	0	9,832874623822165E+003	3,8355036E+000	-2,7559826E-001	4,1111016E+000
3	0	9,834874623797950E+003	3,8355069E+000	-2,7559802E-001	4,1111050E+000
3	0	9,836874623773736E+003	3,8355072E+000	-2,7557561E-001	4,1110826E+000
3	0	9,838874623749522E+003	3,8355048E+000	-2,7557868E-001	4,1110835E+000
3	0	9,840874623725307E+003	3,8354955E+000	-2,7558979E-001	4,1110854E+000
3	0	9,842874623701093E+003	3,8354979E+000	-2,7559739E-001	4,1110954E+000
3	0	9,844874623676878E+003	3,8354990E+000	-2,7557763E-001	4,1110768E+000
3	0	9,846874623652664E+003	3,8354950E+000	-2,7557287E-001	4,1110678E+000
3	0	9,848874623628450E+003	3,8355052E+000	-2,7558175E-001	4,1110868E+000
3	0	9,850874623604235E+003	3,8355052E+000	-2,7558637E-001	4,1110916E+000
3	0	9,852874623580021E+003	3,8355021E+000	-2,7559209E-001	4,1110945E+000
3	0	9,854874623555806E+003	3,8355021E+000	-2,7559003E-001	4,1110921E+000
3	0	9,856874623531592E+003	3,8355052E+000	-2,7558771E-001	4,1110930E+000
3	0	9,858874623507378E+003	3,8355088E+000	-2,7559027E-001	4,1110992E+000
3	0	9,860874623483163E+003	3,8355138E+000	-2,7560395E-001	4,1111178E+000
3	0	9,862874623458949E+003	3,8355072E+000	-2,7560860E-001	4,1111159E+000
3	0	9,864874623434735E+003	3,8355057E+000	-2,7559859E-001	4,1111045E+000
3	0	9,866874623410520E+003	3,8355041E+000	-2,7559471E-001	4,1110988E+000
3	0	9,868874623386306E+003	3,8355103E+000	-2,7559906E-001	4,1111093E+000
3	0	9,870874623362091E+003	3,8355100E+000	-2,7558881E-001	4,1110988E+000
3	0	9,872874623337877E+003	3,8355010E+000	-2,7559465E-001	4,1110954E+000
3	0	9,874874623313663E+003	3,8355083E+000	-2,7559695E-001	4,1111054E+000
3	0	9,876874623289448E+003	3,8355010E+000	-2,7560753E-001	4,1111083E+000
3	0	9,878874623265234E+003	3,8355021E+000	-2,7561361E-001	4,1111159E+000
3	0	9,880874623241019E+003	3,8354936E+000	-2,7560595E-001	4,1110997E+000
3	0	9,882874623216805E+003	3,8354886E+000	-2,7560645E-001	4,1110950E+000
3	0	9,884874623192591E+003	3,8354788E+000	-2,7561232E-001	4,1110911E+000
3	0	9,886874623168376E+003	3,8354888E+000	-2,7561551E-001	4,1111045E+000
3	0	9,888874623144162E+003	3,8354819E+000	-2,7562290E-001	4,1111050E+000
3	0	9,890874623119948E+003	3,8354864E+000	-2,7561301E-001	4,1110992E+000
3	0	9,892874623095733E+003	3,8354852E+000	-2,7560726E-001	4,1110926E+000
3	0	9,894874623071519E+003	3,8354924E+000	-2,7561516E-001	4,1111073E+000
3	0	9,896874623047304E+003	3,8355033E+000	-2,7561092E-001	4,1111145E+000
3	0	9,898874623023090E+003	3,8355005E+000	-2,7562553E-001	4,1111259E+000
3	0	9,900874622998876E+003	3,8354959E+000	-2,7562943E-001	4,1111255E+000
3	0	9,902874622974661E+003	3,8354974E+000	-2,7563402E-001	4,1111312E+000
3	0	9,904874622950447E+003	3,8354852E+000	-2,7562091E-001	4,1111059E+000
3	0	9,906874622926232E+003	3,8354874E+000	-2,7563027E-001	4,1111178E+000
3	0	9,908874622902018E+003	3,8354943E+000	-2,7562100E-001	4,1111155E+000
3	0	9,910874622877804E+003	3,8354852E+000	-2,7561909E-001	4,1111045E+000
3	0	9,912874622853589E+003	3,8354821E+000	-2,7560562E-001	4,1110878E+000
3	0	9,914874622829375E+003	3,8354821E+000	-2,7560493E-001	4,1110868E+000
3	0	9,916874622805160E+003	3,8354833E+000	-2,7560359E-001	4,1110868E+000
3	0	9,918874622780946E+003	3,8354740E+000	-2,7560407E-001	4,1110783E+000
3	0	9,920874622756732E+003	3,8354845E+000	-2,7561232E-001	4,1110969E+000
3	0	9,922874622732517E+003	3,8354733E+000	-2,7561235E-001	4,1110859E+000
3	0	9,924874622708303E+003	3,8354733E+000	-2,7560154E-001	4,1110749E+000
3	0	9,926874622684089E+003	3,8354704E+000	-2,7559465E-001	4,1110649E+000
3	0	9,928874622659874E+003	3,8354795E+000	-2,7560097E-001	4,1110806E+000
3	0	9,930874622635660E+003	3,8354747E+000	-2,7560651E-001	4,1110811E+000
3	0	9,932874622611445E+003	3,8354697E+000	-2,7560553E-001	4,1110754E+000
3	0	9,934874622587231E+003	3,8354692E+000	-2,7560246E-001	4,1110716E+000
3	0	9,936874622563017E+003	3,8354747E+000	-2,7560881E-001	4,1110835E+000
3	0	9,938874622538802E+003	3,8354764E+000	-2,7560744E-001	4,1110840E+000
3	0	9,940874622514588E+003	3,8354592E+000	-2,7561259E-001	4,1110716E+000
3	0	9,942874622490373E+003	3,8354716E+000	-2,7561605E-001	4,1110878E+000
3	0	9,944874622466159E+003	3,8354630E+000	-2,7561814E-001	4,1110811E+000
3	0	9,946874622441945E+003	3,8354599E+000	-2,7559957E-001	4,1110597E+000
3	0	9,948874622417730E+003	3,8354723E+000	-2,7560499E-001	4,1110773E+000
3	0	9,950874622393516E+003	3,8354638E+000	-2,7561319E-001	4,1110768E+000
3	0	9,952874622369302E+003	3,8354607E+000	-2,7559552E-001	4,1110563E+000
3	0	9,954874622345087E+003	3,8354623E+000	-2,7560845E-001	4,1110706E+000
3	0	9,956874622320873E+003	3,8354638E+000	-2,7560750E-001	4,1110711E+000
3	0	9,958874622296658E+003	3,8354800E+000	-2,7560675E-001	4,1110868E+000
3	0	9,960874622272444E+003	3,8354826E+000	-2,7561173E-001	4,1110945E+000
3	0	9,962874622248230E+003	3,8354795E+000	-2,7562192E-001	4,1111016E+000
3	0	9,964874622224015E+003	3,8354776E+000	-2,7561632E-001	4,1110940E+000
3	0	9,966874622199801E+003	3,8354788E+000	-2,7562222E-001	4,1111012E+000
3	0	9,968874622175586E+003	3,8354702E+000	-2,7560496E-001	4,1110754E+000
3	0	9,970874622151372E+003	3,8354661E+000	-2,7558783E-001	4,1110539E+000
3	0	9,972874622127158E+003	3,8354616E+000	-2,7559480E-001	4,1110563E+000
3	0	9,974874622102943E+003	3,8354728E+000	-2,7559516E-001	4,1110678E+000
3	0	9,976874622078729E+003	3,8354642E+000	-2,7559611E-001	4,1110601E+000
3	0	9,978874622054514E+003	3,8354619E+000	-2,7561793E-001	4,1110797E+000
3	0	9,980874622030300E+003	3,8354666E+000	-2,7560827E-001	4,1110749E+000
3	0	9,982874622006086E+003	3,8354650E+000	-2,7560827E-001	4,1110730E+000
3	0	9,984874621981871E+003	3,8354685E+000	-2,7560243E-001	4,1110711E+000
3	0	9,986874621957657E+003	3,8354728E+000	-2,7560797E-001	4,1110806E+000
3	0	9,988874621933443E+003	3,8354704E+000	-2,7560779E-001	4,1110783E+000
3	0	9,990874621909228E+003	3,8354642E+000	-2,7561748E-001	4,1110816E+000
3	0	9,992874621885014E+003	3,8354647E+000	-2,7562371E-001	4,1110883E+000
3	0	9,994694621862989E+003	3,8354599E+000	-2,7560431E-001	4,1110644E+000